# Specific enthalpy/heat capacity (erg/gm)/(erg/gm/K)
# Extrapolate low with T^4/T^3, high with T/constant
# TMIN,TMAX,NT:      1.000,  2500.0
  1000
      1.00000      7.87902      29.6603
      1.00786      8.22117      30.5451
      1.01579      8.56831      31.4413
      1.02377      8.91817      32.3446
      1.03182      9.27079      33.2549
      1.03994      9.62617      34.1724
      1.04811      9.98436      35.0972
      1.05635      10.3454      36.0292
      1.06466      10.7092      36.9685
      1.07303      11.0759      37.9152
      1.08147      11.4455      38.8694
      1.08997      11.8179      39.8310
      1.09854      12.1934      40.8003
      1.10718      12.5717      41.7771
      1.11588      12.9531      42.7617
      1.12466      13.3374      43.7539
      1.13350      13.7248      44.7540
      1.14241      14.1152      45.7619
      1.15139      14.5087      46.7778
      1.16045      14.9052      47.8016
      1.16957      15.3049      48.8335
      1.17877      15.7078      49.8735
      1.18804      16.1138      50.9217
      1.19738      16.5229      51.9782
      1.20679      16.9354      53.0429
      1.21628      17.3510      54.1160
      1.22584      17.7699      55.1976
      1.23548      18.1921      56.2876
      1.24520      18.6177      57.3862
      1.25499      19.2178      58.7639
      1.26485      19.9977      60.4286
      1.27480      20.7837      62.1065
      1.28482      21.5759      63.7976
      1.29492      22.3743      65.5020
      1.30511      23.1790      67.2197
      1.31537      23.9900      68.9510
      1.32571      24.8074      70.6959
      1.33613      25.6313      72.4545
      1.34664      26.4616      74.2270
      1.35723      27.2984      76.0134
      1.36790      28.1418      77.8138
      1.37865      28.9919      79.6284
      1.38949      29.8486      81.4572
      1.40042      30.7121      83.3004
      1.41143      31.5823      85.1581
      1.42253      32.4594      87.0305
      1.43371      33.3434      88.9175
      1.44498      34.2344      90.8194
      1.45635      35.1323      92.7363
      1.46780      36.0373      94.6682
      1.47934      36.9494      96.6152
      1.49097      37.8687      98.5777
      1.50269      38.9237      100.725
      1.51451      40.4545      103.507
      1.52641      41.9973      106.311
      1.53842      43.5522      109.137
      1.55051      45.1194      111.985
      1.56270      46.6989      114.855
      1.57499      48.2908      117.749
      1.58737      49.8953      120.664
      1.59985      51.5123      123.603
      1.61243      53.1421      126.565
      1.62511      54.7847      129.550
      1.63789      56.4402      132.559
      1.65077      58.1087      135.591
      1.66375      59.7903      138.647
      1.67683      61.4852      141.727
      1.69001      63.1934      144.832
      1.70330      64.9150      147.960
      1.71669      66.6501      151.114
      1.73019      68.3989      154.292
      1.74379      70.1614      157.495
      1.75751      72.4408      161.294
      1.77132      75.1792      165.624
      1.78525      77.9391      169.988
      1.79929      80.7207      174.386
      1.81344      83.5242      178.819
      1.82769      86.3498      183.286
      1.84206      89.1975      187.789
      1.85655      92.0677      192.327
      1.87114      94.9604      196.901
      1.88586      97.8759      201.510
      1.90068      100.814      206.156
      1.91563      103.776      210.839
      1.93069      106.761      215.558
      1.94587      109.769      220.315
      1.96117      112.801      225.108
      1.97659      115.856      229.940
      1.99213      118.936      234.809
      2.00780      122.720      240.393
      2.02358      127.260      246.744
      2.03949      131.837      253.146
      2.05553      136.449      259.597
      2.07169      141.098      266.099
      2.08798      145.783      272.653
      2.10440      150.505      279.258
      2.12094      155.264      285.915
      2.13762      160.061      292.624
      2.15443      164.895      299.386
      2.17137      169.768      306.201
      2.18844      174.678      313.069
      2.20565      179.627      319.992
      2.22299      184.616      326.969
      2.24047      189.643      334.001
      2.25808      195.598      341.875
      2.27584      202.713      350.796
      2.29373      209.884      359.786
      2.31176      217.111      368.848
      2.32994      224.396      377.980
      2.34826      231.737      387.184
      2.36672      239.136      396.461
      2.38533      246.593      405.811
      2.40409      254.109      415.234
      2.42299      261.684      424.731
      2.44204      269.319      434.303
      2.46124      277.013      443.951
      2.48059      284.768      453.674
      2.50010      292.584      463.473
      2.51976      303.183      475.520
      2.53957      313.887      487.678
      2.55954      324.675      499.931
      2.57966      335.547      512.281
      2.59994      346.506      524.729
      2.62039      357.550      537.274
      2.64099      368.681      549.918
      2.66175      379.900      562.661
      2.68268      391.207      575.504
      2.70377      402.603      588.448
      2.72503      414.088      601.494
      2.74646      425.664      614.643
      2.76805      440.330      630.070
      2.78982      455.761      646.090
      2.81175      471.313      662.235
      2.83386      486.988      678.507
      2.85614      502.785      694.908
      2.87860      518.707      711.437
      2.90123      534.754      728.096
      2.92404      550.928      744.886
      2.94704      567.228      761.808
      2.97021      583.657      778.864
      2.99356      600.214      796.053
      3.01710      620.274      815.619
      3.04082      641.854      836.247
      3.06473      663.604      857.036
      3.08883      685.526      877.989
      3.11311      707.619      899.107
      3.13759      729.886      920.391
      3.16226      752.329      941.842
      3.18712      774.948      963.461
      3.21218      797.744      985.251
      3.23744      820.720      1007.21
      3.26289      846.836      1031.16
      3.28855      876.216      1057.18
      3.31440      905.826      1083.40
      3.34046      935.670      1109.83
      3.36673      965.748      1136.47
      3.39320      996.063      1163.31
      3.41988      1026.62      1190.37
      3.44677      1057.41      1217.64
      3.47387      1088.44      1245.12
      3.50118      1119.95      1272.95
      3.52871      1158.99      1305.16
      3.55646      1198.34      1337.62
      3.58442      1238.00      1370.33
      3.61260      1277.97      1403.30
      3.64101      1318.26      1436.53
      3.66964      1358.86      1470.02
      3.69849      1399.78      1503.78
      3.72757      1441.02      1537.80
      3.75688      1484.41      1571.42
      3.78642      1534.56      1602.96
      3.81619      1585.11      1634.74
      3.84619      1636.06      1666.77
      3.87643      1687.40      1699.05
      3.90691      1739.16      1731.59
      3.93763      1791.31      1764.39
      3.96859      1843.88      1797.44
      3.99979      1896.86      1830.75
      4.03124      1958.80      1866.80
      4.06294      2021.40      1903.19
      4.09488      2084.49      1939.86
      4.12708      2148.07      1976.82
      4.15953      2212.16      2014.08
      4.19224      2276.75      2051.62
      4.22520      2341.85      2089.46
      4.25842      2409.83      2128.22
      4.29190      2485.89      2169.26
      4.32565      2562.55      2210.62
      4.35966      2639.81      2252.31
      4.39394      2717.68      2294.33
      4.42848      2796.16      2336.67
      4.46330      2875.26      2379.35
      4.49840      2954.98      2422.37
      4.53377      3045.85      2468.30
      4.56941      3138.10      2514.75
      4.60534      3231.08      2561.57
      4.64155      3324.78      2608.76
      4.67805      3419.22      2656.32
      4.71483      3514.40      2704.25
      4.75190      3610.81      2752.67
      4.78926      3720.04      2804.31
      4.82692      3830.13      2856.34
      4.86487      3941.08      2908.79
      4.90312      4052.90      2961.65
      4.94167      4165.61      3014.92
      4.98053      4279.20      3068.62
      5.01969      4400.50      3124.29
      5.05915      4529.92      3182.03
      5.09893      4660.36      3240.23
      5.13902      4791.82      3298.89
      5.17943      4924.32      3358.00
      5.22015      5057.86      3417.58
      5.26120      5196.46      3478.53
      5.30257      5347.68      3542.53
      5.34426      5500.08      3607.03
      5.38628      5653.68      3672.04
      5.42863      5808.49      3737.56
      5.47131      5964.52      3803.60
      5.51433      6127.25      3871.35
      5.55769      6302.98      3942.21
      5.60138      6480.10      4013.62
      5.64543      6658.60      4085.60
      5.68981      6838.51      4158.14
      5.73455      7019.84      4231.25
      5.77964      7214.79      4307.56
      5.82508      7418.06      4385.92
      5.87088      7622.93      4464.90
      5.91704      7829.40      4544.49
      5.96357      8037.50      4624.72
      6.01046      8251.60      4706.49
      6.05771      8483.91      4792.36
      6.10534      8718.04      4878.91
      6.15335      8954.02      4966.14
      6.20173      9191.85      5054.06
      6.25049      9431.55      5142.66
      6.29964      9695.98      5236.62
      6.34917      9962.55      5331.33
      6.39909      10231.2      5426.79
      6.44940      10502.0      5522.99
      6.50011      10774.9      5619.95
      6.55122      11074.8      5722.56
      6.60273      11377.2      5826.03
      6.65464      11682.1      5930.32
      6.70697      11989.3      6035.42
      6.75970      12303.6      6142.24
      6.81285      12643.1      6254.21
      6.86642      12985.2      6367.05
      6.92041      13330.0      6480.79
      6.97482      13677.5      6595.42
      7.02966      14043.4      6713.80
      7.08493      14426.2      6835.69
      7.14064      14812.0      6958.54
      7.19678      15200.8      7082.35
      7.25337      15594.2      7207.40
      7.31040      16021.3      7338.81
      7.36788      16451.8      7471.25
      7.42581      16885.6      7604.74
      7.48419      17322.9      7739.27
      7.54304      17788.5      7879.04
      7.60235      18267.6      8021.56
      7.66212      18750.4      8165.20
      7.72237      19237.1      8309.97
      7.78308      19747.4      8459.06
      7.84428      20279.2      8612.14
      7.90596      20815.2      8766.42
      7.96812      21355.5      8921.92
      8.03077      21919.1      9081.57
      8.09391      22508.1      9245.70
      8.15755      23101.8      9411.12
      8.22169      23700.1      9577.84
      8.28633      24326.6      9749.31
      8.35149      24977.6      9924.98
      8.41715      25633.6      10102.0
      8.48333      26294.8      10280.5
      8.55003      26994.9      10465.0
      8.61726      27712.7      10652.8
      8.68501      28436.1      10841.9
      8.75330      29166.9      11032.8
      8.82212      29950.6      11231.6
      8.89149      30740.4      11431.8
      8.96140      31536.5      11633.7
      9.03186      32361.5      11840.0
      9.10287      33222.2      12051.7
      9.17445      34089.7      12265.1
      9.24658      34964.0      12480.1
      9.31928      35896.9      12703.2
      9.39256      36840.5      12928.4
      9.46641      37791.5      13155.4
      9.54084      38781.1      13387.8
      9.61585      39805.6      13625.3
      9.69146      40838.2      13864.6
      9.76766      41892.3      14107.3
      9.84446      43002.8      14357.4
      9.92186      44122.0      14609.4
      9.99987      45250.1      14863.4
      10.0785      46451.0      15126.3
      10.1577      47662.2      15391.4
      10.2376      48883.0      15658.6
      10.3181      50170.3      15933.8
      10.3992      51479.1      16212.4
      10.4810      52798.2      16493.2
      10.5634      54181.9      16781.6
      10.6465      55594.0      17074.1
      10.7302      57017.3      17368.9
      10.8145      58508.3      17671.6
      10.8996      60029.7      17978.4
      10.9853      61563.2      18287.6
      11.0716      63173.1      18605.4
      11.1587      64810.3      18927.0
      11.2464      66460.4      19251.1
      11.3349      68201.6      19585.0
      11.4240      69961.0      19921.9
      11.5138      71746.2      20262.5
      11.6043      73619.9      20612.4
      11.6956      75508.3      20965.0
      11.7875      77447.0      21323.5
      11.8802      79455.8      21689.6
      11.9736      81480.3      22058.5
      12.0678      83587.2      22435.9
      12.1626      85738.4      22818.5
      12.2583      87913.7      23204.8
      12.3547      90197.0      23601.6
      12.4518      92498.3      24001.5
      12.5497      94868.0      24408.6
      12.6484      97308.2      24823.1
      12.7478      99767.6      25240.8
      12.8481      102349.      25669.8
      12.9491      104954.      26102.4
      13.0509      107634.      26542.6
      13.1535      110391.      26990.6
      13.2569      113177.      27442.6
      13.3612      116092.      27906.2
      13.4662      119031.      28373.5
      13.5721      122072.      28850.3
      13.6788      125177.      29333.8
      13.7864      128347.      29824.0
      13.8948      131624.      30324.0
      14.0040      134931.      30828.1
      14.1141      138389.      31345.1
      14.2251      141874.      31866.1
      14.3369      145487.      32398.3
      14.4497      149160.      32936.8
      14.5633      152937.      33484.6
      14.6778      156807.      34040.9
      14.7932      160758.      34605.1
      14.9095      164830.      35179.8
      15.0267      168967.      35761.1
      15.1449      173251.      36354.6
      15.2640      177585.      36953.7
      15.3840      182089.      37566.4
      15.5049      186633.      38184.2
      15.6268      191365.      38816.5
      15.7497      196134.      39453.8
      15.8735      201100.      40106.1
      15.9983      206107.      40763.6
      16.1241      211317.      41436.4
      16.2509      216572.      42114.8
      16.3787      222040.      42808.9
      16.5075      227559.      43509.0
      16.6373      233292.      44224.7
      16.7681      239092.      44947.4
      16.8999      245098.      45685.3
      17.0328      251195.      46431.5
      17.1667      257485.      47192.0
      17.3017      263895.      47962.6
      17.4377      270478.      48746.2
      17.5748      277220.      49542.1
      17.7130      284108.      50349.4
      17.8523      291198.      51171.4
      17.9926      298400.      52003.1
      18.1341      305857.      52852.1
      18.2767      313424.      53710.7
      18.4204      321231.      54585.7
      18.5652      329195.      55472.8
      18.7112      337349.      56373.7
      18.8583      345731.      57290.4
      19.0066      354250.      58218.0
      19.1560      363064.      59164.8
      19.3067      372035.      60123.6
      19.4585      381230.      61097.9
      19.6115      390674.      62088.8
      19.7657      400286.      63092.3
      19.9211      410205.      64115.3
      20.0777      420328.      65152.6
      20.2356      430665.      66204.8
      20.3947      441322.      67277.0
      20.5550      452182.      68363.3
      20.7166      463310.      69467.1
      20.8795      474745.      70590.1
      21.0437      486403.      71728.3
      21.2092      498368.      72885.6
      21.3759      510644.      74062.2
      21.5440      523167.      75255.1
      21.7134      536016.      76467.9
      21.8841      549204.      77701.1
      22.0562      562663.      78951.6
      22.2296      576445.      80221.8
      22.4044      590615.      81514.5
      22.5805      605085.      82825.7
      22.7581      619863.      84155.9
      22.9370      635083.      85510.8
      23.1174      650642.      86885.8
      23.2991      666538.      88281.0
      23.4823      682822.      89698.3
      23.6669      699553.      91140.4
      23.8530      716653.      92603.8
      24.0406      734133.      94088.9
      24.2296      752048.      95598.2
      24.4201      770442.      97133.1
      24.6121      789248.      98691.1
      24.8056      808480.      100273.
      25.0007      828152.      101878.
      25.1972      848382.      103513.
      25.3954      869073.      105172.
      25.5950      890238.      106856.
      25.7963      911891.      108566.
      25.9991      934052.      110303.
      26.2035      956820.      112070.
      26.4095      980116.      113864.
      26.6172  1.00395e+06      115686.
      26.8265  1.02835e+06      117536.
      27.0374  1.05331e+06      119414.
      27.2500  1.07887e+06      121322.
      27.4642  1.10510e+06      123263.
      27.6802  1.13195e+06      125234.
      27.8978  1.15944e+06      127235.
      28.1172  1.18757e+06      129268.
      28.3383  1.21637e+06      131332.
      28.5611  1.24585e+06      133429.
      28.7856  1.27604e+06      135559.
      29.0120  1.30694e+06      137722.
      29.2401  1.33861e+06      139920.
      29.4700  1.37106e+06      142153.
      29.7017  1.40427e+06      144422.
      29.9352  1.43828e+06      146726.
      30.1706  1.47310e+06      149067.
      30.4078  1.50874e+06      151444.
      30.6469  1.54524e+06      153858.
      30.8879  1.58262e+06      156311.
      31.1307  1.62088e+06      158803.
      31.3755  1.66006e+06      161333.
      31.6222  1.70018e+06      163904.
      31.8708  1.74126e+06      166515.
      32.1214  1.78331e+06      169168.
      32.3740  1.82638e+06      171862.
      32.6285  1.87048e+06      174599.
      32.8851  1.91562e+06      177379.
      33.1436  1.96185e+06      180203.
      33.4042  2.00918e+06      183071.
      33.6669  2.05764e+06      185985.
      33.9316  2.10726e+06      188944.
      34.1984  2.15806e+06      191951.
      34.4673  2.21007e+06      195004.
      34.7383  2.26331e+06      198106.
      35.0114  2.31784e+06      201256.
      35.2867  2.37371e+06      204458.
      35.5641  2.43092e+06      207710.
      35.8437  2.48947e+06      211013.
      36.1256  2.54942e+06      214368.
      36.4096  2.61080e+06      217776.
      36.6959  2.67361e+06      221237.
      36.9844  2.73791e+06      224752.
      37.2752  2.80378e+06      228324.
      37.5683  2.87128e+06      231953.
      37.8637  2.94036e+06      235639.
      38.1614  3.01106e+06      239382.
      38.4614  3.08342e+06      243184.
      38.7638  3.15751e+06      247045.
      39.0686  3.23346e+06      250970.
      39.3758  3.31119e+06      254956.
      39.6854  3.39073e+06      259004.
      39.9974  3.47211e+06      263115.
      40.3119  3.55558e+06      267294.
      40.6289  3.64100e+06      271537.
      40.9483  3.72841e+06      275847.
      41.2703  3.81787e+06      280224.
      41.5948  3.90960e+06      284673.
      41.9218  4.00344e+06      289190.
      42.2514  4.09942e+06      293777.
      42.5836  4.19788e+06      298440.
      42.9185  4.29860e+06      303175.
      43.2559  4.40161e+06      307982.
      43.5960  4.50730e+06      312870.
      43.9388  4.61537e+06      317832.
      44.2843  4.72601e+06      322872.
      44.6325  4.83939e+06      327994.
      44.9834  4.95532e+06      333193.
      45.3371  5.07417e+06      338478.
      45.6936  5.19576e+06      343844.
      46.0528  5.32026e+06      349295.
      46.4149  5.44778e+06      354834.
      46.7799  5.57823e+06      360457.
      47.1477  5.71193e+06      366172.
      47.5184  5.84866e+06      371974.
      47.8920  5.98883e+06      377871.
      48.2686  6.13215e+06      383857.
      48.6481  6.27908e+06      389942.
      49.0306  6.42934e+06      396119.
      49.4161  6.58333e+06      402396.
      49.8046  6.74087e+06      408770.
      50.1962  6.90222e+06      415246.
      50.5909  7.06743e+06      421824.
      50.9887  7.23646e+06      428504.
      51.3896  7.40971e+06      435292.
      51.7936  7.58693e+06      442185.
      52.2009  7.76844e+06      449187.
      52.6113  7.95430e+06      456300.
      53.0250  8.14445e+06      463523.
      53.4419  8.33930e+06      470863.
      53.8621  8.53875e+06      478317.
      54.2856  8.74284e+06      485887.
      54.7124  8.95188e+06      493578.
      55.1426  9.16596e+06      501390.
      55.5762  9.38503e+06      509324.
      56.0131  9.60925e+06      517381.
      56.4535  9.83899e+06      525568.
      56.8974  1.00742e+07      533883.
      57.3448  1.03149e+07      542328.
      57.7957  1.05613e+07      550904.
      58.2501  1.08135e+07      559615.
      58.7081  1.10719e+07      568465.
      59.1697  1.13365e+07      577453.
      59.6349  1.16073e+07      586582.
      60.1038  1.18844e+07      595853.
      60.5764  1.21682e+07      605269.
      61.0527  1.24588e+07      614832.
      61.5327  1.27562e+07      624545.
      62.0165  1.30608e+07      634409.
      62.5041  1.33725e+07      644427.
      62.9956  1.36917e+07      654603.
      63.4909  1.40185e+07      664936.
      63.9901  1.43530e+07      675431.
      64.4932  1.46956e+07      686088.
      65.0003  1.50462e+07      696911.
      65.5114  1.54051e+07      707902.
      66.0265  1.57727e+07      719065.
      66.5456  1.61490e+07      730400.
      67.0688  1.65342e+07      741910.
      67.5962  1.69286e+07      753598.
      68.1277  1.73322e+07      765466.
      68.6633  1.77455e+07      777516.
      69.2032  1.81685e+07      789751.
      69.7473  1.86015e+07      802173.
      70.2957  1.90449e+07      814788.
      70.8484  1.94989e+07      827596.
      71.4055  1.99635e+07      840599.
      71.9669  2.04391e+07      853799.
      72.5327  2.09260e+07      867200.
      73.1030  2.14245e+07      880807.
      73.6778  2.19347e+07      894618.
      74.2571  2.24568e+07      908636.
      74.8410  2.29917e+07      922870.
      75.4294  2.35390e+07      937315.
      76.0225  2.40991e+07      951976.
      76.6202  2.46727e+07      966860.
      77.2227  2.52597e+07      981963.
      77.8298  2.58606e+07      997293.
      78.4418  2.64756e+07  1.01285e+06
      79.0586  2.71052e+07  1.02864e+06
      79.6802  2.77496e+07  1.04466e+06
      80.3067  2.84091e+07  1.06091e+06
      80.9381  2.90842e+07  1.07740e+06
      81.5745  2.97752e+07  1.09414e+06
      82.2159  3.04823e+07  1.11111e+06
      82.8623  3.12062e+07  1.12834e+06
      83.5138  3.19468e+07  1.14581e+06
      84.1704  3.27052e+07  1.16353e+06
      84.8322  3.34812e+07  1.18151e+06
      85.4992  3.42752e+07  1.19974e+06
      86.1715  3.50881e+07  1.21823e+06
      86.8490  3.59198e+07  1.23699e+06
      87.5319  3.67709e+07  1.25600e+06
      88.2201  3.76419e+07  1.27529e+06
      88.9138  3.85334e+07  1.29484e+06
      89.6129  3.94456e+07  1.31467e+06
      90.3175  4.03789e+07  1.33476e+06
      91.0276  4.13339e+07  1.35513e+06
      91.7433  4.23112e+07  1.37578e+06
      92.4646  4.33112e+07  1.39672e+06
      93.1917  4.43344e+07  1.41793e+06
      93.9244  4.53812e+07  1.43943e+06
      94.6629  4.64523e+07  1.46121e+06
      95.4072  4.75481e+07  1.48328e+06
      96.1573  4.86691e+07  1.50565e+06
      96.9134  4.98161e+07  1.52830e+06
      97.6754  5.09894e+07  1.55126e+06
      98.4434  5.21895e+07  1.57450e+06
      99.2174  5.34173e+07  1.59805e+06
      99.9975  5.46732e+07  1.62189e+06
      100.784  5.59579e+07  1.64604e+06
      101.576  5.72721e+07  1.67049e+06
      102.375  5.86161e+07  1.69524e+06
      103.180  5.99907e+07  1.72030e+06
      103.991  6.13965e+07  1.74567e+06
      104.809  6.28343e+07  1.77134e+06
      105.633  6.43049e+07  1.79733e+06
      106.463  6.58085e+07  1.82362e+06
      107.300  6.73461e+07  1.85023e+06
      108.144  6.89185e+07  1.87715e+06
      108.994  7.05261e+07  1.90438e+06
      109.851  7.21701e+07  1.93193e+06
      110.715  7.38506e+07  1.95980e+06
      111.586  7.55690e+07  1.98798e+06
      112.463  7.73256e+07  2.01648e+06
      113.347  7.91215e+07  2.04529e+06
      114.238  8.09571e+07  2.07443e+06
      115.137  8.28338e+07  2.10388e+06
      116.042  8.47517e+07  2.13365e+06
      116.954  8.67122e+07  2.16374e+06
      117.874  8.87159e+07  2.19415e+06
      118.801  9.07635e+07  2.22487e+06
      119.735  9.28563e+07  2.25592e+06
      120.676  9.49950e+07  2.28728e+06
      121.625  9.71802e+07  2.31897e+06
      122.581  9.94131e+07  2.35097e+06
      123.545  1.01694e+08  2.38329e+06
      124.516  1.04026e+08  2.41592e+06
      125.495  1.06407e+08  2.44888e+06
      126.482  1.08839e+08  2.48215e+06
      127.477  1.11324e+08  2.51574e+06
      128.479  1.13864e+08  2.54964e+06
      129.489  1.16456e+08  2.58386e+06
      130.507  1.19104e+08  2.61839e+06
      131.533  1.21809e+08  2.65323e+06
      132.568  1.24571e+08  2.68838e+06
      133.610  1.27392e+08  2.72385e+06
      134.660  1.30272e+08  2.75962e+06
      135.719  1.33213e+08  2.79571e+06
      136.786  1.36215e+08  2.83210e+06
      137.862  1.39282e+08  2.86880e+06
      138.946  1.42411e+08  2.90580e+06
      140.038  1.45606e+08  2.94310e+06
      141.139  1.48867e+08  2.98071e+06
      142.249  1.52196e+08  3.01862e+06
      143.368  1.55594e+08  3.05683e+06
      144.495  1.59061e+08  3.09533e+06
      145.631  1.62600e+08  3.13413e+06
      146.776  1.66211e+08  3.17322e+06
      147.930  1.69895e+08  3.21261e+06
      149.093  1.73655e+08  3.25229e+06
      150.265  1.77491e+08  3.29226e+06
      151.447  1.81405e+08  3.33251e+06
      152.638  1.85397e+08  3.37305e+06
      153.838  1.89470e+08  3.41388e+06
      155.047  1.93624e+08  3.45498e+06
      156.266  1.97861e+08  3.49637e+06
      157.495  2.02183e+08  3.53804e+06
      158.733  2.06590e+08  3.57999e+06
      159.981  2.11084e+08  3.62221e+06
      161.239  2.15668e+08  3.66470e+06
      162.507  2.20340e+08  3.70747e+06
      163.785  2.25105e+08  3.75051e+06
      165.073  2.29963e+08  3.79381e+06
      166.370  2.34915e+08  3.83738e+06
      167.679  2.39964e+08  3.88122e+06
      168.997  2.45110e+08  3.92532e+06
      170.326  2.50355e+08  3.96969e+06
      171.665  2.55701e+08  4.01431e+06
      173.015  2.61149e+08  4.05920e+06
      174.375  2.66702e+08  4.10434e+06
      175.746  2.72361e+08  4.14974e+06
      177.128  2.78126e+08  4.19539e+06
      178.521  2.84000e+08  4.24130e+06
      179.924  2.89987e+08  4.28745e+06
      181.339  2.96085e+08  4.33386e+06
      182.765  3.02297e+08  4.38052e+06
      184.202  3.08626e+08  4.42743e+06
      185.650  3.15072e+08  4.47459e+06
      187.110  3.21638e+08  4.52199e+06
      188.581  3.28326e+08  4.56963e+06
      190.064  3.35137e+08  4.61753e+06
      191.558  3.42073e+08  4.66566e+06
      193.064  3.49137e+08  4.71404e+06
      194.582  3.56331e+08  4.76266e+06
      196.112  3.63654e+08  4.81152e+06
      197.654  3.71111e+08  4.86062e+06
      199.208  3.78704e+08  4.90997e+06
      200.774  3.86432e+08  4.95955e+06
      202.353  3.94301e+08  5.00937e+06
      203.944  4.02311e+08  5.05943e+06
      205.548  4.10464e+08  5.10973e+06
      207.164  4.18764e+08  5.16027e+06
      208.793  4.27210e+08  5.21105e+06
      210.434  4.35807e+08  5.26207e+06
      212.089  4.44555e+08  5.31332e+06
      213.756  4.53458e+08  5.36481e+06
      215.437  4.62519e+08  5.41655e+06
      217.131  4.71738e+08  5.46852e+06
      218.838  4.81119e+08  5.52073e+06
      220.559  4.90663e+08  5.57318e+06
      222.293  5.00374e+08  5.62587e+06
      224.041  5.10252e+08  5.67880e+06
      225.802  5.20302e+08  5.73197e+06
      227.578  5.30527e+08  5.78538e+06
      229.367  5.40927e+08  5.83904e+06
      231.170  5.51506e+08  5.89294e+06
      232.988  5.62266e+08  5.94708e+06
      234.820  5.73210e+08  6.00146e+06
      236.666  5.84342e+08  6.05609e+06
      238.527  5.95662e+08  6.11097e+06
      240.403  6.07175e+08  6.16609e+06
      242.293  6.18881e+08  6.22145e+06
      244.198  6.30787e+08  6.27707e+06
      246.118  6.42893e+08  6.33294e+06
      248.053  6.55202e+08  6.38905e+06
      250.003  6.67718e+08  6.44541e+06
      251.969  6.80444e+08  6.50203e+06
      253.950  6.93382e+08  6.55890e+06
      255.947  7.06535e+08  6.61602e+06
      257.959  7.19906e+08  6.67339e+06
      259.988  7.33500e+08  6.73102e+06
      262.032  7.47318e+08  6.78891e+06
      264.092  7.61366e+08  6.84705e+06
      266.168  7.75644e+08  6.90544e+06
      268.261  7.90157e+08  6.96410e+06
      270.370  8.04908e+08  7.02301e+06
      272.496  8.19901e+08  7.08218e+06
      274.639  8.35139e+08  7.14162e+06
      276.798  8.50624e+08  7.20131e+06
      278.975  8.66362e+08  7.26126e+06
      281.168  8.82356e+08  7.32147e+06
      283.379  8.98609e+08  7.38195e+06
      285.607  9.15124e+08  7.44268e+06
      287.852  9.31906e+08  7.50368e+06
      290.116  9.48958e+08  7.56493e+06
      292.397  9.66284e+08  7.62645e+06
      294.696  9.83889e+08  7.68823e+06
      297.013  1.00177e+09  7.75027e+06
      299.348  1.01995e+09  7.81257e+06
      301.702  1.03841e+09  7.87514e+06
      304.074  1.05717e+09  7.93796e+06
      306.465  1.07621e+09  8.00103e+06
      308.874  1.09558e+09  8.06437e+06
      311.303  1.11524e+09  8.12797e+06
      313.751  1.13521e+09  8.19182e+06
      316.218  1.15549e+09  8.25592e+06
      318.704  1.17610e+09  8.32028e+06
      321.210  1.19703e+09  8.38489e+06
      323.735  1.21829e+09  8.44975e+06
      326.281  1.23988e+09  8.51486e+06
      328.846  1.26181e+09  8.58021e+06
      331.432  1.28408e+09  8.64581e+06
      334.038  1.30670e+09  8.71165e+06
      336.664  1.32966e+09  8.77773e+06
      339.311  1.35299e+09  8.84404e+06
      341.979  1.37667e+09  8.91059e+06
      344.668  1.40072e+09  8.97737e+06
      347.378  1.42514e+09  9.04438e+06
      350.109  1.44994e+09  9.11162e+06
      352.862  1.47511e+09  9.17907e+06
      355.636  1.50067e+09  9.24674e+06
      358.433  1.52662e+09  9.31463e+06
      361.251  1.55297e+09  9.38273e+06
      364.091  1.57972e+09  9.45103e+06
      366.954  1.60687e+09  9.51953e+06
      369.839  1.63443e+09  9.58823e+06
      372.747  1.66241e+09  9.65713e+06
      375.678  1.69082e+09  9.72621e+06
      378.632  1.71965e+09  9.79547e+06
      381.609  1.74892e+09  9.86491e+06
      384.609  1.77862e+09  9.93453e+06
      387.633  1.80877e+09  1.00043e+07
      390.681  1.83937e+09  1.00743e+07
      393.753  1.87042e+09  1.01443e+07
      396.849  1.90193e+09  1.02146e+07
      399.969  1.93392e+09  1.02850e+07
      403.114  1.96637e+09  1.03555e+07
      406.283  1.99930e+09  1.04262e+07
      409.478  2.03273e+09  1.04970e+07
      412.697  2.06664e+09  1.05679e+07
      415.942  2.10104e+09  1.06389e+07
      419.213  2.13595e+09  1.07100e+07
      422.509  2.17137e+09  1.07812e+07
      425.831  2.20730e+09  1.08525e+07
      429.179  2.24376e+09  1.09239e+07
      432.553  2.28074e+09  1.09954e+07
      435.954  2.31826e+09  1.10669e+07
      439.382  2.35632e+09  1.11385e+07
      442.837  2.39493e+09  1.12101e+07
      446.319  2.43408e+09  1.12818e+07
      449.828  2.47379e+09  1.13535e+07
      453.365  2.51408e+09  1.14253e+07
      456.929  2.55493e+09  1.14971e+07
      460.522  2.59637e+09  1.15689e+07
      464.143  2.63838e+09  1.16407e+07
      467.792  2.68100e+09  1.17125e+07
      471.470  2.72421e+09  1.17842e+07
      475.177  2.76803e+09  1.18560e+07
      478.913  2.81246e+09  1.19277e+07
      482.679  2.85751e+09  1.19994e+07
      486.474  2.90318e+09  1.20711e+07
      490.299  2.94949e+09  1.21427e+07
      494.154  2.99644e+09  1.22142e+07
      498.039  3.04403e+09  1.22857e+07
      501.955  3.09229e+09  1.23571e+07
      505.902  3.14119e+09  1.24284e+07
      509.880  3.19077e+09  1.24996e+07
      513.889  3.24103e+09  1.25707e+07
      517.929  3.29196e+09  1.26417e+07
      522.002  3.34359e+09  1.27126e+07
      526.106  3.39591e+09  1.27833e+07
      530.242  3.44894e+09  1.28540e+07
      534.412  3.50268e+09  1.29244e+07
      538.613  3.55713e+09  1.29947e+07
      542.848  3.61231e+09  1.30649e+07
      547.117  3.66822e+09  1.31349e+07
      551.418  3.72487e+09  1.32047e+07
      555.754  3.78227e+09  1.32743e+07
      560.124  3.84043e+09  1.33437e+07
      564.528  3.89935e+09  1.34130e+07
      568.966  3.95904e+09  1.34820e+07
      573.440  4.01951e+09  1.35508e+07
      577.949  4.08076e+09  1.36194e+07
      582.493  4.14280e+09  1.36877e+07
      587.073  4.20565e+09  1.37558e+07
      591.689  4.26930e+09  1.38237e+07
      596.341  4.33377e+09  1.38913e+07
      601.030  4.39906e+09  1.39586e+07
      605.755  4.46518e+09  1.40257e+07
      610.518  4.53214e+09  1.40925e+07
      615.318  4.59996e+09  1.41590e+07
      620.156  4.66861e+09  1.42253e+07
      625.032  4.73814e+09  1.42912e+07
      629.947  4.80853e+09  1.43568e+07
      634.900  4.87981e+09  1.44222e+07
      639.892  4.95197e+09  1.44872e+07
      644.923  5.02501e+09  1.45519e+07
      649.994  5.09897e+09  1.46163e+07
      655.105  5.17383e+09  1.46803e+07
      660.255  5.24961e+09  1.47441e+07
      665.447  5.32632e+09  1.48074e+07
      670.679  5.40396e+09  1.48705e+07
      675.952  5.48254e+09  1.49331e+07
      681.267  5.56207e+09  1.49954e+07
      686.624  5.64257e+09  1.50574e+07
      692.022  5.72402e+09  1.51190e+07
      697.463  5.80645e+09  1.51802e+07
      702.947  5.88986e+09  1.52411e+07
      708.474  5.97427e+09  1.53015e+07
      714.045  6.05967e+09  1.53616e+07
      719.659  6.14608e+09  1.54213e+07
      725.317  6.23351e+09  1.54806e+07
      731.020  6.32197e+09  1.55395e+07
      736.768  6.41145e+09  1.55980e+07
      742.561  6.50198e+09  1.56561e+07
      748.399  6.59355e+09  1.57138e+07
      754.284  6.68619e+09  1.57711e+07
      760.214  6.77989e+09  1.58280e+07
      766.192  6.87467e+09  1.58845e+07
      772.216  6.97054e+09  1.59406e+07
      778.288  7.06749e+09  1.59962e+07
      784.407  7.16554e+09  1.60514e+07
      790.575  7.26471e+09  1.61062e+07
      796.791  7.36500e+09  1.61606e+07
      803.055  7.46641e+09  1.62146e+07
      809.370  7.56896e+09  1.62681e+07
      815.733  7.67266e+09  1.63212e+07
      822.147  7.77751e+09  1.63738e+07
      828.611  7.88352e+09  1.64260e+07
      835.127  7.99071e+09  1.64778e+07
      841.693  8.09907e+09  1.65292e+07
      848.311  8.20863e+09  1.65801e+07
      854.981  8.31939e+09  1.66306e+07
      861.703  8.43136e+09  1.66806e+07
      868.478  8.54454e+09  1.67302e+07
      875.307  8.65895e+09  1.67794e+07
      882.189  8.77460e+09  1.68281e+07
      889.125  8.89150e+09  1.68764e+07
      896.116  9.00964e+09  1.69243e+07
      903.162  9.12906e+09  1.69717e+07
      910.263  9.24974e+09  1.70187e+07
      917.420  9.37171e+09  1.70652e+07
      924.634  9.49497e+09  1.71113e+07
      931.904  9.61954e+09  1.71570e+07
      939.231  9.74541e+09  1.72022e+07
      946.616  9.87262e+09  1.72470e+07
      954.059  1.00012e+10  1.72913e+07
      961.560  1.01311e+10  1.73352e+07
      969.120  1.02622e+10  1.73787e+07
      976.740  1.03949e+10  1.74218e+07
      984.420  1.05288e+10  1.74644e+07
      992.160  1.06642e+10  1.75066e+07
      999.961  1.08009e+10  1.75483e+07
      1007.82  1.09390e+10  1.75897e+07
      1015.75  1.10786e+10  1.76306e+07
      1023.73  1.12195e+10  1.76710e+07
      1031.78  1.13619e+10  1.77111e+07
      1039.90  1.15058e+10  1.77507e+07
      1048.07  1.16510e+10  1.77899e+07
      1056.31  1.17978e+10  1.78287e+07
      1064.62  1.19460e+10  1.78671e+07
      1072.99  1.20958e+10  1.79051e+07
      1081.43  1.22470e+10  1.79426e+07
      1089.93  1.23997e+10  1.79798e+07
      1098.50  1.25540e+10  1.80165e+07
      1107.13  1.27097e+10  1.80528e+07
      1115.84  1.28670e+10  1.80887e+07
      1124.61  1.30259e+10  1.81243e+07
      1133.46  1.31863e+10  1.81594e+07
      1142.37  1.33483e+10  1.81941e+07
      1151.35  1.35118e+10  1.82285e+07
      1160.40  1.36771e+10  1.82624e+07
      1169.53  1.38438e+10  1.82960e+07
      1178.72  1.40122e+10  1.83291e+07
      1187.99  1.41822e+10  1.83619e+07
      1197.33  1.43539e+10  1.83943e+07
      1206.74  1.45272e+10  1.84263e+07
      1216.23  1.47022e+10  1.84580e+07
      1225.80  1.48789e+10  1.84892e+07
      1235.43  1.50572e+10  1.85201e+07
      1245.15  1.52372e+10  1.85507e+07
      1254.94  1.54190e+10  1.85809e+07
      1264.80  1.56025e+10  1.86107e+07
      1274.75  1.57877e+10  1.86401e+07
      1284.77  1.59747e+10  1.86692e+07
      1294.87  1.61634e+10  1.86979e+07
      1305.05  1.63540e+10  1.87263e+07
      1315.32  1.65463e+10  1.87544e+07
      1325.66  1.67404e+10  1.87821e+07
      1336.08  1.69362e+10  1.88094e+07
      1346.59  1.71340e+10  1.88364e+07
      1357.17  1.73336e+10  1.88631e+07
      1367.84  1.75350e+10  1.88895e+07
      1378.60  1.77383e+10  1.89155e+07
      1389.44  1.79434e+10  1.89412e+07
      1400.36  1.81505e+10  1.89666e+07
      1411.37  1.83595e+10  1.89916e+07
      1422.47  1.85704e+10  1.90163e+07
      1433.65  1.87832e+10  1.90407e+07
      1444.93  1.89979e+10  1.90649e+07
      1456.29  1.92147e+10  1.90886e+07
      1467.74  1.94334e+10  1.91121e+07
      1479.28  1.96541e+10  1.91353e+07
      1490.91  1.98768e+10  1.91582e+07
      1502.63  2.01016e+10  1.91808e+07
      1514.45  2.03283e+10  1.92031e+07
      1526.35  2.05571e+10  1.92251e+07
      1538.36  2.07879e+10  1.92468e+07
      1550.45  2.10208e+10  1.92683e+07
      1562.64  2.12558e+10  1.92894e+07
      1574.93  2.14930e+10  1.93103e+07
      1587.31  2.17322e+10  1.93309e+07
      1599.79  2.19736e+10  1.93512e+07
      1612.37  2.22171e+10  1.93712e+07
      1625.05  2.24628e+10  1.93910e+07
      1637.82  2.27108e+10  1.94106e+07
      1650.70  2.29608e+10  1.94298e+07
      1663.68  2.32131e+10  1.94488e+07
      1676.76  2.34676e+10  1.94676e+07
      1689.95  2.37244e+10  1.94861e+07
      1703.23  2.39834e+10  1.95043e+07
      1716.62  2.42448e+10  1.95223e+07
      1730.12  2.45084e+10  1.95401e+07
      1743.73  2.47743e+10  1.95576e+07
      1757.44  2.50426e+10  1.95749e+07
      1771.25  2.53132e+10  1.95919e+07
      1785.18  2.55861e+10  1.96087e+07
      1799.22  2.58615e+10  1.96253e+07
      1813.36  2.61393e+10  1.96416e+07
      1827.62  2.64194e+10  1.96578e+07
      1841.99  2.67020e+10  1.96737e+07
      1856.47  2.69871e+10  1.96893e+07
      1871.07  2.72746e+10  1.97048e+07
      1885.78  2.75646e+10  1.97201e+07
      1900.61  2.78571e+10  1.97351e+07
      1915.55  2.81521e+10  1.97499e+07
      1930.61  2.84497e+10  1.97645e+07
      1945.79  2.87498e+10  1.97790e+07
      1961.09  2.90525e+10  1.97932e+07
      1976.51  2.93578e+10  1.98072e+07
      1992.05  2.96657e+10  1.98210e+07
      2007.72  2.99763e+10  1.98346e+07
      2023.50  3.02895e+10  1.98481e+07
      2039.41  3.06055e+10  1.98613e+07
      2055.45  3.09240e+10  1.98744e+07
      2071.61  3.12453e+10  1.98873e+07
      2087.90  3.15694e+10  1.98999e+07
      2104.31  3.18961e+10  1.99125e+07
      2120.86  3.22257e+10  1.99248e+07
      2137.53  3.25580e+10  1.99369e+07
      2154.34  3.28932e+10  1.99489e+07
      2171.28  3.32312e+10  1.99607e+07
      2188.35  3.35720e+10  1.99724e+07
      2205.56  3.39158e+10  1.99839e+07
      2222.90  3.42625e+10  1.99952e+07
      2240.38  3.46120e+10  2.00063e+07
      2257.99  3.49646e+10  2.00173e+07
      2275.75  3.53201e+10  2.00282e+07
      2293.64  3.56785e+10  2.00388e+07
      2311.67  3.60400e+10  2.00494e+07
      2329.85  3.64045e+10  2.00597e+07
      2348.17  3.67720e+10  2.00700e+07
      2366.63  3.71427e+10  2.00800e+07
      2385.24  3.75165e+10  2.00900e+07
      2403.99  3.78933e+10  2.00998e+07
      2422.89  3.82733e+10  2.01094e+07
      2441.94  3.86565e+10  2.01189e+07
      2461.14  3.90429e+10  2.01283e+07
      2480.50  3.94324e+10  2.01375e+07
      2500.00  3.98253e+10  2.01466e+07
