# Specific enthalpy/heat capacity (erg/gm)/(erg/gm/K)
# Extrapolate low with T^4/T^3, high with T/constant
# MIN,TMAX,NT:      1.000,  2500.0
  1000
      1.00000      34.6789      130.548
      1.00786      36.1849      134.442
      1.01579      37.7128      138.386
      1.02377      39.2527      142.362
      1.03182      40.8047      146.369
      1.03994      42.3689      150.407
      1.04811      43.9454      154.477
      1.05635      45.5343      158.580
      1.06466      47.1357      162.714
      1.07303      48.7497      166.881
      1.08147      50.3763      171.081
      1.08997      52.0158      175.313
      1.09854      53.6682      179.579
      1.10718      55.3335      183.879
      1.11588      57.0120      188.212
      1.12466      58.7036      192.580
      1.13350      60.4085      196.981
      1.14241      62.1269      201.418
      1.15139      63.8587      205.889
      1.16045      65.6042      210.395
      1.16957      67.3634      214.937
      1.17877      69.1365      219.515
      1.18804      70.9234      224.128
      1.19738      72.7244      228.778
      1.20679      74.5396      233.464
      1.21628      76.3691      238.187
      1.22584      78.2129      242.948
      1.23548      80.0713      247.746
      1.24520      81.9442      252.581
      1.25499      84.5857      258.645
      1.26485      88.0182      265.972
      1.27480      91.4778      273.357
      1.28482      94.9645      280.800
      1.29492      98.4787      288.302
      1.30511      102.021      295.862
      1.31537      105.590      303.483
      1.32571      109.188      311.163
      1.33613      112.814      318.903
      1.34664      116.468      326.704
      1.35723      120.152      334.567
      1.36790      123.864      342.491
      1.37865      127.605      350.478
      1.38949      131.376      358.528
      1.40042      135.177      366.640
      1.41143      139.007      374.817
      1.42253      142.867      383.058
      1.43371      146.758      391.364
      1.44498      150.680      399.735
      1.45635      154.632      408.171
      1.46780      158.615      416.675
      1.47934      162.630      425.245
      1.49097      166.676      433.882
      1.50269      171.319      443.334
      1.51451      178.057      455.578
      1.52641      184.848      467.919
      1.53842      191.692      480.357
      1.55051      198.590      492.893
      1.56270      205.542      505.528
      1.57499      212.548      518.261
      1.58737      219.610      531.095
      1.59985      226.728      544.030
      1.61243      233.901      557.066
      1.62511      241.131      570.205
      1.63789      248.417      583.447
      1.65077      255.761      596.794
      1.66375      263.163      610.245
      1.67683      270.622      623.802
      1.69001      278.141      637.466
      1.70330      285.718      651.237
      1.71669      293.356      665.116
      1.73019      301.053      679.104
      1.74379      308.810      693.203
      1.75751      318.843      709.924
      1.77132      330.896      728.982
      1.78525      343.043      748.188
      1.79929      355.286      767.546
      1.81344      367.626      787.057
      1.82769      380.062      806.720
      1.84206      392.596      826.538
      1.85655      405.229      846.512
      1.87114      417.961      866.643
      1.88586      430.793      886.933
      1.90068      443.726      907.381
      1.91563      456.761      927.991
      1.93069      469.898      948.763
      1.94587      483.139      969.698
      1.96117      496.483      990.797
      1.97659      509.933      1012.06
      1.99213      523.488      1033.50
      2.00780      540.141      1058.07
      2.02358      560.127      1086.03
      2.03949      580.269      1114.20
      2.05553      600.571      1142.60
      2.07169      621.032      1171.22
      2.08798      641.653      1200.06
      2.10440      662.437      1229.13
      2.12094      683.384      1258.43
      2.13762      704.496      1287.96
      2.15443      725.774      1317.72
      2.17137      747.219      1347.72
      2.18844      768.833      1377.95
      2.20565      790.617      1408.42
      2.22299      812.572      1439.13
      2.24047      834.700      1470.08
      2.25808      860.721      1503.21
      2.27584      891.605      1539.02
      2.29373      922.732      1575.11
      2.31176      954.103      1611.48
      2.32994      985.721      1648.14
      2.34826      1017.59      1685.09
      2.36672      1049.70      1722.33
      2.38533      1082.07      1759.86
      2.40409      1114.70      1797.68
      2.42299      1147.58      1835.81
      2.44204      1180.72      1874.23
      2.46124      1214.12      1912.96
      2.48059      1247.78      1951.99
      2.50010      1281.71      1991.32
      2.51976      1326.26      2035.18
      2.53957      1371.25      2079.42
      2.55954      1416.59      2124.01
      2.57966      1462.29      2168.95
      2.59994      1508.35      2214.24
      2.62039      1554.77      2259.89
      2.64099      1601.55      2305.90
      2.66175      1648.71      2352.27
      2.68268      1696.23      2399.00
      2.70377      1744.13      2446.10
      2.72503      1792.40      2493.57
      2.74646      1841.06      2541.42
      2.76805      1900.47      2593.24
      2.78982      1962.59      2646.25
      2.81175      2025.21      2699.67
      2.83386      2088.31      2753.52
      2.85614      2151.91      2807.79
      2.87860      2216.01      2862.48
      2.90123      2280.62      2917.61
      2.92404      2345.73      2973.17
      2.94704      2411.36      3029.16
      2.97021      2477.50      3085.60
      2.99356      2544.16      3142.48
      3.01710      2621.99      3203.14
      3.04082      2704.74      3265.62
      3.06473      2788.14      3328.59
      3.08883      2872.19      3392.06
      3.11311      2956.91      3456.03
      3.13759      3042.29      3520.50
      3.16226      3128.34      3585.48
      3.18712      3215.07      3650.96
      3.21218      3302.48      3716.97
      3.23744      3390.58      3783.49
      3.26289      3487.95      3853.03
      3.28855      3594.97      3925.69
      3.31440      3702.83      3998.92
      3.34046      3811.54      4072.73
      3.36673      3921.11      4147.12
      3.39320      4031.53      4222.09
      3.41988      4142.83      4297.65
      3.44677      4255.00      4373.81
      3.47387      4368.05      4450.56
      3.50118      4482.60      4528.09
      3.52871      4617.61      4611.56
      3.55646      4753.69      4695.69
      3.58442      4890.84      4780.47
      3.61260      5029.06      4865.93
      3.64101      5168.38      4952.05
      3.66964      5308.78      5038.86
      3.69849      5450.30      5126.34
      3.72757      5592.92      5214.52
      3.75688      5741.76      5304.69
      3.78642      5909.78      5400.22
      3.81619      6079.11      5496.49
      3.84619      6249.78      5593.52
      3.87643      6421.79      5691.31
      3.90691      6595.15      5789.87
      3.93763      6769.88      5889.21
      3.96859      6945.98      5989.33
      3.99979      7123.46      6090.23
      4.03124      7328.06      6198.20
      4.06294      7534.78      6307.14
      4.09488      7743.12      6416.94
      4.12708      7953.11      6527.59
      4.15953      8164.74      6639.12
      4.19224      8378.04      6751.53
      4.22520      8593.01      6864.82
      4.25842      8816.75      6980.63
      4.29190      9064.74      7102.56
      4.32565      9314.69      7225.44
      4.35966      9566.59      7349.28
      4.39394      9820.48      7474.10
      4.42848      10076.4      7599.90
      4.46330      10334.3      7726.69
      4.49840      10594.2      7854.48
      4.53377      10887.3      7990.11
      4.56941      11184.7      8127.24
      4.60534      11484.5      8265.44
      4.64155      11786.6      8404.72
      4.67805      12091.0      8545.11
      4.71483      12397.9      8686.59
      4.75190      12708.6      8829.48
      4.78926      13057.2      8980.90
      4.82692      13408.5      9133.50
      4.86487      13762.6      9287.30
      4.90312      14119.5      9442.31
      4.94167      14479.2      9598.54
      4.98053      14841.7      9756.00
      5.01969      15227.1      9918.66
      5.05915      15636.3      10086.7
      5.09893      16048.8      10256.2
      5.13902      16464.5      10426.9
      5.17943      16883.5      10599.0
      5.22015      17305.8      10772.4
      5.26120      17743.0      10949.4
      5.30257      18217.1      11134.2
      5.34426      18694.9      11320.3
      5.38628      19176.4      11508.0
      5.42863      19661.8      11697.1
      5.47131      20150.9      11887.7
      5.51433      20659.7      12082.6
      5.55769      21206.0      12285.2
      5.60138      21756.7      12489.4
      5.64543      22311.8      12695.2
      5.68981      22871.2      12902.6
      5.73455      23435.0      13111.6
      5.77964      24037.9      13328.3
      5.82508      24664.8      13550.0
      5.87088      25296.7      13773.5
      5.91704      25933.6      13998.7
      5.96357      26575.5      14225.8
      6.01046      27234.7      14456.6
      6.05771      27945.5      14697.0
      6.10534      28662.0      14939.2
      6.15335      29384.1      15183.4
      6.20173      30111.9      15429.5
      6.25049      30845.4      15677.6
      6.29964      31648.2      15937.7
      6.34917      32457.6      16199.9
      6.39909      33273.3      16464.2
      6.44940      34095.4      16730.6
      6.50011      34924.0      16999.0
      6.55122      35827.3      17280.1
      6.60273      36738.5      17563.4
      6.65464      37656.9      17849.0
      6.70697      38582.4      18136.9
      6.75970      39527.9      18428.9
      6.81285      40542.6      18732.3
      6.86642      41565.3      19038.1
      6.92041      42596.0      19346.3
      6.97482      43634.8      19657.0
      7.02966      44723.8      19976.0
      7.08493      45859.3      20303.1
      7.14064      47003.8      20632.6
      7.19678      48157.2      20964.8
      7.25337      49323.7      21300.1
      7.31040      50581.2      21649.4
      7.36788      51848.6      22001.4
      7.42581      53125.9      22356.2
      7.48419      54413.3      22713.7
      7.54304      55776.7      23082.9
      7.60235      57176.8      23458.4
      7.66212      58587.8      23836.9
      7.72237      60010.0      24218.4
      7.78308      61495.4      24609.5
      7.84428      63038.4      25009.7
      7.90596      64593.6      25413.0
      7.96812      66161.1      25819.6
      8.03077      67790.6      26235.5
      8.09391      69487.7      26661.5
      8.15755      71198.2      27090.9
      8.22169      72922.0      27523.7
      8.28633      74720.3      27967.3
      8.35149      76583.0      28420.4
      8.41715      78460.3      28877.1
      8.48333      80352.4      29337.4
      8.55003      82346.2      29811.6
      8.61726      84386.8      30293.1
      8.68501      86443.4      30778.5
      8.75330      88520.7      31268.1
      8.82212      90734.8      31775.4
      8.89149      92966.4      32286.7
      8.96140      95215.6      32802.0
      9.03186      97540.2      33327.8
      9.10287      99957.4      33866.1
      9.17445      102394.      34408.5
      9.24658      104849.      34955.3
      9.31928      107455.      35520.5
      9.39256      110091.      36091.1
      9.46641      112747.      36666.2
      9.54084      115502.      37254.1
      9.61585      118348.      37853.9
      9.69146      121215.      38458.4
      9.76766      124140.      39071.1
      9.84446      127209.      39701.1
      9.92186      130302.      40336.1
      9.99987      133419.      40976.1
      10.0785      136722.      41637.2
      10.1577      140053.      42303.8
      10.2376      143411.      42975.6
      10.3181      146937.      43666.7
      10.3992      150520.      44366.0
      10.4810      154131.      45070.8
      10.5634      157907.      45794.1
      10.6465      161756.      46527.4
      10.7302      165636.      47266.4
      10.8145      169688.      48024.4
      10.8996      173819.      48792.8
      10.9853      177983.      49567.2
      11.0716      182340.      50362.4
      11.1587      186768.      51167.2
      11.2464      191230.      51978.3
      11.3349      195924.      52813.3
      11.4240      200666.      53655.8
      11.5138      205475.      54507.5
      11.6043      210508.      55382.2
      11.6956      215580.      56263.7
      11.7875      220781.      57159.8
      11.8802      226159.      58074.5
      11.9736      231580.      58996.5
      12.0678      237210.      59939.6
      12.1626      242953.      60895.9
      12.2583      248760.      61861.2
      12.3547      254839.      62852.7
      12.4518      260966.      63852.0
      12.5497      267267.      64869.3
      12.6484      273747.      65904.9
      12.7478      280279.      66948.7
      12.8481      287118.      68020.9
      12.9491      294020.      69102.3
      13.0509      301110.      70202.5
      13.1535      308398.      71322.3
      13.2569      315759.      72452.1
      13.3612      323450.      73611.4
      13.4662      331201.      74779.8
      13.5721      339211.      75972.1
      13.6788      347383.      77181.2
      13.7864      355720.      78407.1
      13.8948      364332.      79657.9
      14.0040      373020.      80919.1
      14.1141      382088.      82212.6
      14.2251      391227.      83516.3
      14.3369      400692.      84848.1
      14.4497      410309.      86196.0
      14.5633      420189.      87567.3
      14.6778      430305.      88960.3
      14.7932      440627.      90373.0
      14.9095      451259.      91812.3
      15.0267      462052.      93268.2
      15.1449      473220.      94754.9
      15.2640      484515.      96255.9
      15.3840      496240.      97791.1
      15.5049      508069.      99339.2
      15.6268      520372.      100924.
      15.7497      532771.      102522.
      15.8735      545668.      104157.
      15.9983      558673.      105806.
      16.1241      572188.      107493.
      16.2509      585820.      109194.
      16.3787      599989.      110936.
      16.5075      614291.      112692.
      16.6373      629132.      114488.
      16.7681      644146.      116301.
      16.8999      659681.      118153.
      17.0328      675447.      120026.
      17.1667      691701.      121935.
      17.3017      708261.      123870.
      17.4377      725259.      125838.
      17.5748      742658.      127836.
      17.7130      760428.      129864.
      17.8523      778710.      131928.
      17.9926      797279.      134018.
      18.1341      816490.      136151.
      18.2767      835982.      138308.
      18.4204      856077.      140507.
      18.5652      876575.      142736.
      18.7112      897550.      145000.
      18.8583      919105.      147305.
      19.0066      941009.      149637.
      19.1560      963657.      152017.
      19.3067      986703.      154428.
      19.4585  1.01032e+06      156878.
      19.6115  1.03456e+06      159370.
      19.7657  1.05923e+06      161894.
      19.9211  1.08468e+06      164467.
      20.0777  1.11064e+06      167077.
      20.2356  1.13715e+06      169724.
      20.3947  1.16446e+06      172421.
      20.5550  1.19229e+06      175155.
      20.7166  1.22080e+06      177933.
      20.8795  1.25008e+06      180759.
      21.0437  1.27993e+06      183624.
      21.2092  1.31056e+06      186537.
      21.3759  1.34197e+06      189499.
      21.5440  1.37401e+06      192502.
      21.7134  1.40687e+06      195555.
      21.8841  1.44059e+06      198660.
      22.0562  1.47500e+06      201809.
      22.2296  1.51022e+06      205008.
      22.4044  1.54643e+06      208264.
      22.5805  1.58340e+06      211566.
      22.7581  1.62115e+06      214917.
      22.9370  1.66001e+06      218330.
      23.1174  1.69973e+06      221794.
      23.2991  1.74030e+06      225309.
      23.4823  1.78185e+06      228880.
      23.6669  1.82454e+06      232514.
      23.8530  1.86816e+06      236202.
      24.0406  1.91275e+06      239945.
      24.2296  1.95843e+06      243749.
      24.4201  2.00532e+06      247618.
      24.6121  2.05326e+06      251545.
      24.8056  2.10228e+06      255532.
      25.0007  2.15241e+06      259580.
      25.1972  2.20394e+06      263701.
      25.3954  2.25665e+06      267884.
      25.5950  2.31056e+06      272131.
      25.7963  2.36570e+06      276444.
      25.9991  2.42213e+06      280824.
      26.2035  2.48008e+06      285281.
      26.4095  2.53938e+06      289806.
      26.6172  2.60005e+06      294401.
      26.8265  2.66212e+06      299068.
      27.0374  2.72563e+06      303808.
      27.2500  2.79065e+06      308622.
      27.4642  2.85739e+06      313518.
      27.6802  2.92569e+06      318491.
      27.8978  2.99558e+06      323541.
      28.1172  3.06711e+06      328671.
      28.3383  3.14033e+06      333881.
      28.5611  3.21528e+06      339173.
      28.7856  3.29200e+06      344548.
      29.0120  3.37055e+06      350008.
      29.2401  3.45102e+06      355557.
      29.4700  3.53346e+06      361195.
      29.7017  3.61786e+06      366922.
      29.9352  3.70426e+06      372739.
      30.1706  3.79271e+06      378648.
      30.4078  3.88325e+06      384650.
      30.6469  3.97595e+06      390747.
      30.8879  4.07086e+06      396940.
      31.1307  4.16802e+06      403231.
      31.3755  4.26750e+06      409622.
      31.6222  4.36935e+06      416113.
      31.8708  4.47363e+06      422707.
      32.1214  4.58040e+06      429405.
      32.3740  4.68971e+06      436209.
      32.6285  4.80162e+06      443120.
      32.8851  4.91620e+06      450141.
      33.1436  5.03351e+06      457272.
      33.4042  5.15361e+06      464515.
      33.6669  5.27657e+06      471872.
      33.9316  5.40245e+06      479345.
      34.1984  5.53132e+06      486935.
      34.4673  5.66325e+06      494644.
      34.7383  5.79829e+06      502474.
      35.0114  5.93659e+06      510428.
      35.2867  6.07830e+06      518509.
      35.5641  6.22336e+06      526717.
      35.8437  6.37185e+06      535053.
      36.1256  6.52386e+06      543519.
      36.4096  6.67945e+06      552116.
      36.6959  6.83870e+06      560847.
      36.9844  7.00169e+06      569712.
      37.2752  7.16868e+06      578719.
      37.5683  7.33974e+06      587869.
      37.8637  7.51481e+06      597159.
      38.1614  7.69398e+06      606592.
      38.4614  7.87733e+06      616170.
      38.7638  8.06503e+06      625896.
      39.0686  8.25746e+06      635778.
      39.3758  8.45436e+06      645811.
      39.6854  8.65582e+06      655995.
      39.9974  8.86195e+06      666334.
      40.3119  9.07330e+06      676839.
      40.6289  9.28960e+06      687503.
      40.9483  9.51087e+06      698327.
      41.2703  9.73736e+06      709315.
      41.5948  9.96950e+06      720477.
      41.9218  1.02069e+07      731805.
      42.2514  1.04498e+07      743300.
      42.5836  1.06990e+07      754978.
      42.9185  1.09537e+07      766828.
      43.2559  1.12142e+07      778850.
      43.5960  1.14815e+07      791064.
      43.9388  1.17548e+07      803454.
      44.2843  1.20344e+07      816027.
      44.6325  1.23209e+07      828792.
      44.9834  1.26138e+07      841739.
      45.3371  1.29140e+07      854884.
      45.6936  1.32211e+07      868219.
      46.0528  1.35354e+07      881749.
      46.4149  1.38573e+07      895478.
      46.7799  1.41864e+07      909402.
      47.1477  1.45237e+07      923534.
      47.5184  1.48685e+07      937862.
      47.8920  1.52218e+07      952404.
      48.2686  1.55830e+07      967145.
      48.6481  1.59532e+07      982103.
      49.0306  1.63315e+07      997266.
      49.4161  1.67191e+07  1.01265e+06
      49.8046  1.71155e+07  1.02824e+06
      50.1962  1.75213e+07  1.04405e+06
      50.5909  1.79365e+07  1.06008e+06
      50.9887  1.83612e+07  1.07633e+06
      51.3896  1.87963e+07  1.09280e+06
      51.7936  1.92410e+07  1.10950e+06
      52.2009  1.96963e+07  1.12642e+06
      52.6113  2.01623e+07  1.14356e+06
      53.0250  2.06387e+07  1.16094e+06
      53.4419  2.11266e+07  1.17854e+06
      53.8621  2.16256e+07  1.19638e+06
      54.2856  2.21359e+07  1.21445e+06
      54.7124  2.26582e+07  1.23275e+06
      55.1426  2.31926e+07  1.25129e+06
      55.5762  2.37392e+07  1.27006e+06
      56.0131  2.42980e+07  1.28907e+06
      56.4535  2.48702e+07  1.30832e+06
      56.8974  2.54554e+07  1.32781e+06
      57.3448  2.60537e+07  1.34753e+06
      57.7957  2.66657e+07  1.36750e+06
      58.2501  2.72916e+07  1.38770e+06
      58.7081  2.79320e+07  1.40815e+06
      59.1697  2.85869e+07  1.42885e+06
      59.6349  2.92565e+07  1.44978e+06
      60.1038  2.99413e+07  1.47096e+06
      60.5764  3.06414e+07  1.49238e+06
      61.0527  3.13573e+07  1.51404e+06
      61.5327  3.20893e+07  1.53595e+06
      62.0165  3.28376e+07  1.55810e+06
      62.5041  3.36028e+07  1.58049e+06
      62.9956  3.43851e+07  1.60313e+06
      63.4909  3.51849e+07  1.62601e+06
      63.9901  3.60024e+07  1.64913e+06
      64.4932  3.68379e+07  1.67250e+06
      65.0003  3.76920e+07  1.69610e+06
      65.5114  3.85649e+07  1.71995e+06
      66.0265  3.94571e+07  1.74403e+06
      66.5456  4.03689e+07  1.76836e+06
      67.0688  4.13007e+07  1.79292e+06
      67.5962  4.22528e+07  1.81772e+06
      68.1277  4.32255e+07  1.84275e+06
      68.6633  4.42194e+07  1.86802e+06
      69.2032  4.52346e+07  1.89352e+06
      69.7473  4.62718e+07  1.91926e+06
      70.2957  4.73315e+07  1.94522e+06
      70.8484  4.84140e+07  1.97141e+06
      71.4055  4.95196e+07  1.99782e+06
      71.9669  5.06486e+07  2.02446e+06
      72.5327  5.18016e+07  2.05133e+06
      73.1030  5.29794e+07  2.07841e+06
      73.6778  5.41819e+07  2.10571e+06
      74.2571  5.54094e+07  2.13322e+06
      74.8410  5.66633e+07  2.16095e+06
      75.4294  5.79431e+07  2.18889e+06
      76.0225  5.92494e+07  2.21704e+06
      76.6202  6.05833e+07  2.24539e+06
      77.2227  6.19444e+07  2.27394e+06
      77.8298  6.33340e+07  2.30270e+06
      78.4418  6.47520e+07  2.33165e+06
      79.0586  6.61990e+07  2.36079e+06
      79.6802  6.76757e+07  2.39013e+06
      80.3067  6.91822e+07  2.41965e+06
      80.9381  7.07195e+07  2.44935e+06
      81.5745  7.22877e+07  2.47924e+06
      82.2159  7.38874e+07  2.50931e+06
      82.8623  7.55194e+07  2.53954e+06
      83.5138  7.71836e+07  2.56995e+06
      84.1704  7.88814e+07  2.60053e+06
      84.8322  8.06127e+07  2.63127e+06
      85.4992  8.23778e+07  2.66216e+06
      86.1715  8.41782e+07  2.69322e+06
      86.8490  8.60135e+07  2.72442e+06
      87.5319  8.78844e+07  2.75578e+06
      88.2201  8.97919e+07  2.78727e+06
      88.9138  9.17364e+07  2.81891e+06
      89.6129  9.37182e+07  2.85068e+06
      90.3175  9.57379e+07  2.88259e+06
      91.0276  9.77961e+07  2.91463e+06
      91.7433  9.98937e+07  2.94678e+06
      92.4646  1.02031e+08  2.97906e+06
      93.1917  1.04208e+08  3.01146e+06
      93.9244  1.06427e+08  3.04396e+06
      94.6629  1.08687e+08  3.07658e+06
      95.4072  1.10989e+08  3.10929e+06
      96.1573  1.13334e+08  3.14211e+06
      96.9134  1.15722e+08  3.17502e+06
      97.6754  1.18154e+08  3.20803e+06
      98.4434  1.20631e+08  3.24112e+06
      99.2174  1.23152e+08  3.27429e+06
      99.9975  1.25720e+08  3.30755e+06
      100.784  1.28333e+08  3.34087e+06
      101.576  1.30994e+08  3.37427e+06
      102.375  1.33702e+08  3.40774e+06
      103.180  1.36459e+08  3.44126e+06
      103.991  1.39264e+08  3.47485e+06
      104.809  1.42119e+08  3.50849e+06
      105.633  1.45024e+08  3.54218e+06
      106.463  1.47980e+08  3.57592e+06
      107.300  1.50987e+08  3.60971e+06
      108.144  1.54047e+08  3.64353e+06
      108.994  1.57159e+08  3.67739e+06
      109.851  1.60326e+08  3.71127e+06
      110.715  1.63546e+08  3.74519e+06
      111.586  1.66821e+08  3.77914e+06
      112.463  1.70152e+08  3.81310e+06
      113.347  1.73538e+08  3.84708e+06
      114.238  1.76982e+08  3.88108e+06
      115.137  1.80483e+08  3.91509e+06
      116.042  1.84042e+08  3.94911e+06
      116.954  1.87661e+08  3.98313e+06
      117.874  1.91340e+08  4.01715e+06
      118.801  1.95079e+08  4.05117e+06
      119.735  1.98879e+08  4.08519e+06
      120.676  2.02741e+08  4.11920e+06
      121.625  2.06665e+08  4.15320e+06
      122.581  2.10653e+08  4.18719e+06
      123.545  2.14705e+08  4.22116e+06
      124.516  2.18822e+08  4.25512e+06
      125.495  2.23005e+08  4.28905e+06
      126.482  2.27253e+08  4.32297e+06
      127.477  2.31570e+08  4.35685e+06
      128.479  2.35953e+08  4.39071e+06
      129.489  2.40406e+08  4.42454e+06
      130.507  2.44928e+08  4.45835e+06
      131.533  2.49520e+08  4.49211e+06
      132.568  2.54183e+08  4.52584e+06
      133.610  2.58918e+08  4.55954e+06
      134.660  2.63726e+08  4.59319e+06
      135.719  2.68607e+08  4.62681e+06
      136.786  2.73562e+08  4.66038e+06
      137.862  2.78592e+08  4.69391e+06
      138.946  2.83699e+08  4.72740e+06
      140.038  2.88882e+08  4.76084e+06
      141.139  2.94142e+08  4.79423e+06
      142.249  2.99481e+08  4.82758e+06
      143.368  3.04899e+08  4.86087e+06
      144.495  3.10397e+08  4.89412e+06
      145.631  3.15976e+08  4.92731e+06
      146.776  3.21637e+08  4.96045e+06
      147.930  3.27380e+08  4.99354e+06
      149.093  3.33208e+08  5.02658e+06
      150.265  3.39119e+08  5.05956e+06
      151.447  3.45117e+08  5.09248e+06
      152.638  3.51201e+08  5.12535e+06
      153.838  3.57371e+08  5.15817e+06
      155.047  3.63630e+08  5.19093e+06
      156.266  3.69979e+08  5.22363e+06
      157.495  3.76417e+08  5.25628e+06
      158.733  3.82946e+08  5.28887e+06
      159.981  3.89567e+08  5.32140e+06
      161.239  3.96281e+08  5.35388e+06
      162.507  4.03089e+08  5.38630e+06
      163.785  4.09992e+08  5.41866e+06
      165.073  4.16991e+08  5.45097e+06
      166.370  4.24087e+08  5.48322e+06
      167.679  4.31280e+08  5.51541e+06
      168.997  4.38573e+08  5.54754e+06
      170.326  4.45966e+08  5.57962e+06
      171.665  4.53460e+08  5.61164e+06
      173.015  4.61055e+08  5.64361e+06
      174.375  4.68754e+08  5.67552e+06
      175.746  4.76558e+08  5.70737e+06
      177.128  4.84466e+08  5.73917e+06
      178.521  4.92481e+08  5.77091e+06
      179.924  5.00604e+08  5.80260e+06
      181.339  5.08835e+08  5.83424e+06
      182.765  5.17176e+08  5.86582e+06
      184.202  5.25628e+08  5.89734e+06
      185.650  5.34192e+08  5.92882e+06
      187.110  5.42869e+08  5.96023e+06
      188.581  5.51661e+08  5.99160e+06
      190.064  5.60569e+08  6.02292e+06
      191.558  5.69592e+08  6.05418e+06
      193.064  5.78734e+08  6.08539e+06
      194.582  5.87996e+08  6.11654e+06
      196.112  5.97377e+08  6.14765e+06
      197.654  6.06881e+08  6.17870e+06
      199.208  6.16507e+08  6.20971e+06
      200.774  6.26257e+08  6.24066e+06
      202.353  6.36133e+08  6.27156e+06
      203.944  6.46136e+08  6.30241e+06
      205.548  6.56267e+08  6.33321e+06
      207.164  6.66527e+08  6.36396e+06
      208.793  6.76919e+08  6.39466e+06
      210.434  6.87441e+08  6.42531e+06
      212.089  6.98098e+08  6.45591e+06
      213.756  7.08889e+08  6.48646e+06
      215.437  7.19816e+08  6.51695e+06
      217.131  7.30881e+08  6.54740e+06
      218.838  7.42085e+08  6.57779e+06
      220.559  7.53429e+08  6.60814e+06
      222.293  7.64915e+08  6.63843e+06
      224.041  7.76544e+08  6.66867e+06
      225.802  7.88318e+08  6.69886e+06
      227.578  8.00238e+08  6.72900e+06
      229.367  8.12305e+08  6.75908e+06
      231.170  8.24522e+08  6.78911e+06
      232.988  8.36889e+08  6.81909e+06
      234.820  8.49409e+08  6.84901e+06
      236.666  8.62082e+08  6.87887e+06
      238.527  8.74910e+08  6.90868e+06
      240.403  8.87895e+08  6.93844e+06
      242.293  9.01038e+08  6.96813e+06
      244.198  9.14341e+08  6.99777e+06
      246.118  9.27805e+08  7.02735e+06
      248.053  9.41433e+08  7.05687e+06
      250.003  9.55225e+08  7.08633e+06
      251.969  9.69183e+08  7.11573e+06
      253.950  9.83310e+08  7.14506e+06
      255.947  9.97606e+08  7.17433e+06
      257.959  1.01207e+09  7.20354e+06
      259.988  1.02671e+09  7.23268e+06
      262.032  1.04153e+09  7.26175e+06
      264.092  1.05652e+09  7.29075e+06
      266.168  1.07169e+09  7.31969e+06
      268.261  1.08704e+09  7.34855e+06
      270.370  1.10257e+09  7.37734e+06
      272.496  1.11828e+09  7.40606e+06
      274.639  1.13418e+09  7.43470e+06
      276.798  1.15026e+09  7.46326e+06
      278.975  1.16654e+09  7.49175e+06
      281.168  1.18300e+09  7.52016e+06
      283.379  1.19966e+09  7.54848e+06
      285.607  1.21651e+09  7.57672e+06
      287.852  1.23355e+09  7.60488e+06
      290.116  1.25080e+09  7.63296e+06
      292.397  1.26824e+09  7.66094e+06
      294.696  1.28589e+09  7.68884e+06
      297.013  1.30373e+09  7.71665e+06
      299.348  1.32179e+09  7.74436e+06
      301.702  1.34005e+09  7.77198e+06
      304.074  1.35852e+09  7.79951e+06
      306.465  1.37719e+09  7.82694e+06
      308.874  1.39609e+09  7.85426e+06
      311.303  1.41519e+09  7.88149e+06
      313.751  1.43452e+09  7.90862e+06
      316.218  1.45406e+09  7.93564e+06
      318.704  1.47383e+09  7.96256e+06
      321.210  1.49381e+09  7.98936e+06
      323.735  1.51402e+09  8.01606e+06
      326.281  1.53446e+09  8.04265e+06
      328.846  1.55513e+09  8.06913e+06
      331.432  1.57603e+09  8.09549e+06
      334.038  1.59716e+09  8.12174e+06
      336.664  1.61852e+09  8.14786e+06
      339.311  1.64013e+09  8.17387e+06
      341.979  1.66197e+09  8.19976e+06
      344.668  1.68405e+09  8.22552e+06
      347.378  1.70638e+09  8.25116e+06
      350.109  1.72895e+09  8.27668e+06
      352.862  1.75177e+09  8.30206e+06
      355.636  1.77484e+09  8.32732e+06
      358.433  1.79816e+09  8.35245e+06
      361.251  1.82173e+09  8.37744e+06
      364.091  1.84556e+09  8.40231e+06
      366.954  1.86965e+09  8.42703e+06
      369.839  1.89400e+09  8.45162e+06
      372.747  1.91861e+09  8.47608e+06
      375.678  1.94349e+09  8.50039e+06
      378.632  1.96863e+09  8.52456e+06
      381.609  1.99404e+09  8.54859e+06
      384.609  2.01973e+09  8.57248e+06
      387.633  2.04569e+09  8.59622e+06
      390.681  2.07193e+09  8.61982e+06
      393.753  2.09844e+09  8.64327e+06
      396.849  2.12524e+09  8.66657e+06
      399.969  2.15231e+09  8.68972e+06
      403.114  2.17968e+09  8.71272e+06
      406.283  2.20734e+09  8.73557e+06
      409.478  2.23528e+09  8.75827e+06
      412.697  2.26351e+09  8.78081e+06
      415.942  2.29203e+09  8.80320e+06
      419.213  2.32086e+09  8.82543e+06
      422.509  2.34999e+09  8.84751e+06
      425.831  2.37942e+09  8.86943e+06
      429.179  2.40915e+09  8.89120e+06
      432.553  2.43919e+09  8.91280e+06
      435.954  2.46954e+09  8.93424e+06
      439.382  2.50020e+09  8.95553e+06
      442.837  2.53117e+09  8.97665e+06
      446.319  2.56247e+09  8.99762e+06
      449.828  2.59408e+09  9.01842e+06
      453.365  2.62601e+09  9.03906e+06
      456.929  2.65827e+09  9.05953e+06
      460.522  2.69085e+09  9.07984e+06
      464.143  2.72377e+09  9.09999e+06
      467.792  2.75701e+09  9.11998e+06
      471.470  2.79059e+09  9.13980e+06
      475.177  2.82451e+09  9.15945e+06
      478.913  2.85877e+09  9.17894e+06
      482.679  2.89337e+09  9.19827e+06
      486.474  2.92831e+09  9.21743e+06
      490.299  2.96361e+09  9.23643e+06
      494.154  2.99925e+09  9.25526e+06
      498.039  3.03524e+09  9.27392e+06
      501.955  3.07160e+09  9.29242e+06
      505.902  3.10831e+09  9.31075e+06
      509.880  3.14538e+09  9.32892e+06
      513.889  3.18282e+09  9.34692e+06
      517.929  3.22062e+09  9.36476e+06
      522.002  3.25879e+09  9.38243e+06
      526.106  3.29733e+09  9.39994e+06
      530.242  3.33625e+09  9.41728e+06
      534.412  3.37555e+09  9.43446e+06
      538.613  3.41523e+09  9.45147e+06
      542.848  3.45529e+09  9.46832e+06
      547.117  3.49574e+09  9.48501e+06
      551.418  3.53658e+09  9.50153e+06
      555.754  3.57781e+09  9.51790e+06
      560.124  3.61943e+09  9.53409e+06
      564.528  3.66146e+09  9.55013e+06
      568.966  3.70388e+09  9.56601e+06
      573.440  3.74671e+09  9.58172e+06
      577.949  3.78995e+09  9.59728e+06
      582.493  3.83360e+09  9.61267e+06
      587.073  3.87765e+09  9.62791e+06
      591.689  3.92213e+09  9.64299e+06
      596.341  3.96703e+09  9.65791e+06
      601.030  4.01234e+09  9.67267e+06
      605.755  4.05809e+09  9.68728e+06
      610.518  4.10426e+09  9.70173e+06
      615.318  4.15087e+09  9.71603e+06
      620.156  4.19791e+09  9.73017e+06
      625.032  4.24539e+09  9.74416e+06
      629.947  4.29331e+09  9.75800e+06
      634.900  4.34168e+09  9.77168e+06
      639.892  4.39049e+09  9.78522e+06
      644.923  4.43975e+09  9.79860e+06
      649.994  4.48947e+09  9.81184e+06
      655.105  4.53965e+09  9.82492e+06
      660.255  4.59029e+09  9.83786e+06
      665.447  4.64140e+09  9.85066e+06
      670.679  4.69298e+09  9.86331e+06
      675.952  4.74502e+09  9.87581e+06
      681.267  4.79754e+09  9.88817e+06
      686.624  4.85054e+09  9.90039e+06
      692.022  4.90402e+09  9.91247e+06
      697.463  4.95798e+09  9.92440e+06
      702.947  5.01244e+09  9.93620e+06
      708.474  5.06740e+09  9.94785e+06
      714.045  5.12284e+09  9.95937e+06
      719.659  5.17879e+09  9.97076e+06
      725.317  5.23524e+09  9.98201e+06
      731.020  5.29219e+09  9.99312e+06
      736.768  5.34966e+09  1.00041e+07
      742.561  5.40765e+09  1.00149e+07
      748.399  5.46616e+09  1.00257e+07
      754.284  5.52518e+09  1.00363e+07
      760.214  5.58473e+09  1.00467e+07
      766.192  5.64482e+09  1.00570e+07
      772.216  5.70543e+09  1.00672e+07
      778.288  5.76659e+09  1.00773e+07
      784.407  5.82828e+09  1.00873e+07
      790.575  5.89053e+09  1.00971e+07
      796.791  5.95332e+09  1.01068e+07
      803.055  6.01667e+09  1.01164e+07
      809.370  6.08058e+09  1.01259e+07
      815.733  6.14505e+09  1.01352e+07
      822.147  6.21008e+09  1.01444e+07
      828.611  6.27569e+09  1.01535e+07
      835.127  6.34187e+09  1.01625e+07
      841.693  6.40863e+09  1.01714e+07
      848.311  6.47597e+09  1.01802e+07
      854.981  6.54390e+09  1.01888e+07
      861.703  6.61242e+09  1.01974e+07
      868.478  6.68154e+09  1.02058e+07
      875.307  6.75126e+09  1.02141e+07
      882.189  6.82158e+09  1.02224e+07
      889.125  6.89252e+09  1.02305e+07
      896.116  6.96406e+09  1.02385e+07
      903.162  7.03623e+09  1.02464e+07
      910.263  7.10902e+09  1.02542e+07
      917.420  7.18244e+09  1.02619e+07
      924.634  7.25649e+09  1.02694e+07
      931.904  7.33117e+09  1.02769e+07
      939.231  7.40650e+09  1.02843e+07
      946.616  7.48248e+09  1.02916e+07
      954.059  7.55910e+09  1.02988e+07
      961.560  7.63639e+09  1.03059e+07
      969.120  7.71433e+09  1.03129e+07
      976.740  7.79294e+09  1.03198e+07
      984.420  7.87222e+09  1.03266e+07
      992.160  7.95218e+09  1.03334e+07
      999.961  8.03281e+09  1.03400e+07
      1007.82  8.11413e+09  1.03465e+07
      1015.75  8.19614e+09  1.03530e+07
      1023.73  8.27885e+09  1.03594e+07
      1031.78  8.36226e+09  1.03657e+07
      1039.90  8.44638e+09  1.03718e+07
      1048.07  8.53121e+09  1.03780e+07
      1056.31  8.61675e+09  1.03840e+07
      1064.62  8.70302e+09  1.03899e+07
      1072.99  8.79002e+09  1.03958e+07
      1081.43  8.87775e+09  1.04016e+07
      1089.93  8.96622e+09  1.04073e+07
      1098.50  9.05542e+09  1.04129e+07
      1107.13  9.14539e+09  1.04184e+07
      1115.84  9.23610e+09  1.04239e+07
      1124.61  9.32758e+09  1.04293e+07
      1133.46  9.41982e+09  1.04346e+07
      1142.37  9.51285e+09  1.04399e+07
      1151.35  9.60664e+09  1.04450e+07
      1160.40  9.70122e+09  1.04501e+07
      1169.53  9.79658e+09  1.04552e+07
      1178.72  9.89275e+09  1.04601e+07
      1187.99  9.98971e+09  1.04650e+07
      1197.33  1.00875e+10  1.04698e+07
      1206.74  1.01861e+10  1.04746e+07
      1216.23  1.02855e+10  1.04792e+07
      1225.80  1.03857e+10  1.04839e+07
      1235.43  1.04868e+10  1.04884e+07
      1245.15  1.05886e+10  1.04929e+07
      1254.94  1.06914e+10  1.04973e+07
      1264.80  1.07950e+10  1.05017e+07
      1274.75  1.08995e+10  1.05060e+07
      1284.77  1.10048e+10  1.05102e+07
      1294.87  1.11110e+10  1.05144e+07
      1305.05  1.12181e+10  1.05185e+07
      1315.32  1.13260e+10  1.05225e+07
      1325.66  1.14349e+10  1.05265e+07
      1336.08  1.15446e+10  1.05305e+07
      1346.59  1.16553e+10  1.05344e+07
      1357.17  1.17668e+10  1.05382e+07
      1367.84  1.18793e+10  1.05420e+07
      1378.60  1.19927e+10  1.05457e+07
      1389.44  1.21070e+10  1.05493e+07
      1400.36  1.22223e+10  1.05530e+07
      1411.37  1.23385e+10  1.05565e+07
      1422.47  1.24556e+10  1.05600e+07
      1433.65  1.25737e+10  1.05635e+07
      1444.93  1.26929e+10  1.05669e+07
      1456.29  1.28129e+10  1.05702e+07
      1467.74  1.29340e+10  1.05735e+07
      1479.28  1.30560e+10  1.05768e+07
      1490.91  1.31790e+10  1.05800e+07
      1502.63  1.33031e+10  1.05832e+07
      1514.45  1.34282e+10  1.05863e+07
      1526.35  1.35542e+10  1.05894e+07
      1538.36  1.36813e+10  1.05924e+07
      1550.45  1.38095e+10  1.05954e+07
      1562.64  1.39386e+10  1.05983e+07
      1574.93  1.40689e+10  1.06012e+07
      1587.31  1.42002e+10  1.06041e+07
      1599.79  1.43325e+10  1.06069e+07
      1612.37  1.44660e+10  1.06096e+07
      1625.05  1.46005e+10  1.06124e+07
      1637.82  1.47361e+10  1.06151e+07
      1650.70  1.48728e+10  1.06177e+07
      1663.68  1.50107e+10  1.06203e+07
      1676.76  1.51496e+10  1.06229e+07
      1689.95  1.52897e+10  1.06254e+07
      1703.23  1.54309e+10  1.06279e+07
      1716.62  1.55732e+10  1.06304e+07
      1730.12  1.57167e+10  1.06328e+07
      1743.73  1.58613e+10  1.06352e+07
      1757.44  1.60072e+10  1.06375e+07
      1771.25  1.61542e+10  1.06399e+07
      1785.18  1.63024e+10  1.06421e+07
      1799.22  1.64518e+10  1.06444e+07
      1813.36  1.66024e+10  1.06466e+07
      1827.62  1.67542e+10  1.06488e+07
      1841.99  1.69072e+10  1.06509e+07
      1856.47  1.70615e+10  1.06531e+07
      1871.07  1.72170e+10  1.06551e+07
      1885.78  1.73738e+10  1.06572e+07
      1900.61  1.75318e+10  1.06592e+07
      1915.55  1.76911e+10  1.06612e+07
      1930.61  1.78517e+10  1.06632e+07
      1945.79  1.80136e+10  1.06651e+07
      1961.09  1.81768e+10  1.06670e+07
      1976.51  1.83413e+10  1.06689e+07
      1992.05  1.85071e+10  1.06707e+07
      2007.72  1.86743e+10  1.06726e+07
      2023.50  1.88427e+10  1.06743e+07
      2039.41  1.90125e+10  1.06761e+07
      2055.45  1.91837e+10  1.06779e+07
      2071.61  1.93563e+10  1.06796e+07
      2087.90  1.95303e+10  1.06813e+07
      2104.31  1.97057e+10  1.06829e+07
      2120.86  1.98824e+10  1.06846e+07
      2137.53  2.00606e+10  1.06862e+07
      2154.34  2.02402e+10  1.06878e+07
      2171.28  2.04213e+10  1.06893e+07
      2188.35  2.06038e+10  1.06909e+07
      2205.56  2.07877e+10  1.06924e+07
      2222.90  2.09732e+10  1.06939e+07
      2240.38  2.11601e+10  1.06953e+07
      2257.99  2.13485e+10  1.06968e+07
      2275.75  2.15384e+10  1.06982e+07
      2293.64  2.17299e+10  1.06996e+07
      2311.67  2.19229e+10  1.07010e+07
      2329.85  2.21173e+10  1.07024e+07
      2348.17  2.23134e+10  1.07037e+07
      2366.63  2.25110e+10  1.07050e+07
      2385.24  2.27103e+10  1.07063e+07
      2403.99  2.29110e+10  1.07076e+07
      2422.89  2.31134e+10  1.07089e+07
      2441.94  2.33175e+10  1.07101e+07
      2461.14  2.35231e+10  1.07114e+07
      2480.50  2.37304e+10  1.07126e+07
      2500.00  2.39394e+10  1.07138e+07
